**************************************************************
***  MERIS LUT-168: Aerosol transmittance                  ***
***                 for each of AOTs at 560nm [AOT560],    ***
***                 for each of 78 aerosol models [IAER],  ***
***                 & for each of 12 solar angles [SZA]    ***
**************************************************************

Aerosol optical thickness (560nm): AOT560
---------------------------------        

 0.0 0.1 0.2 0.3 0.4 0.5 0.6 0.7 0.8 0.9 1.0 1.1 1.2 1.3 1.4 1.5

12 Gaussian angles (deg): SZA
------------------------     

 2.84 17.64 28.77 36.19 43.61 51.03 58.46 65.88 69.59 73.30 77.01 80.72

Aerosol transmittance: [SZA x AOT560]
---------------------                

Aerosol model #32
 1 0.9912 0.982016 0.972508 0.962701 0.952959 0.943092 0.933043 0.92276 0.91245 0.902564 0.892323 0.882418 0.872447 0.862464 0.852487
 1 0.990314 0.980209 0.969769 0.95903 0.9484 0.937421 0.926271 0.915672 0.904921 0.893983 0.883316 0.872103 0.86177 0.85109 0.840458
 1 0.988493 0.976451 0.964238 0.951675 0.939327 0.926664 0.913897 0.902076 0.889775 0.876799 0.865562 0.853681 0.841977 0.830455 0.819115
 1 0.98637 0.972177 0.957982 0.943605 0.929251 0.914988 0.900872 0.886941 0.873222 0.859743 0.846512 0.833551 0.820863 0.808444 0.796313
 1 0.983017 0.965667 0.948265 0.930987 0.913944 0.897212 0.88084 0.864864 0.849298 0.834163 0.819453 0.805173 0.791325 0.77789 0.764872
 1 0.977606 0.955174 0.933112 0.911616 0.890796 0.870708 0.851377 0.832806 0.814988 0.797906 0.781533 0.76584 0.750797 0.736378 0.722551
 1 0.968454 0.937879 0.908722 0.881128 0.855123 0.830668 0.807697 0.786129 0.76587 0.746818 0.728901 0.712015 0.696093 0.68105 0.666816
 1 0.951936 0.907818 0.867803 0.831636 0.798956 0.769367 0.742686 0.71833 0.696247 0.675942 0.657398 0.640219 0.624408 0.609653 0.595968
 1 0.938415 0.884152 0.83679 0.795441 0.759224 0.727378 0.699218 0.674152 0.651875 0.631713 0.613582 0.596964 0.581843 0.567825 0.554932
 1 0.918452 0.850767 0.79464 0.747822 0.70863 0.675273 0.646858 0.622114 0.600618 0.581473 0.56452 0.549113 0.535236 0.52241 0.510688
 1 0.887323 0.801763 0.736268 0.685212 0.644874 0.612243 0.585236 0.562597 0.543091 0.526178 0.511107 0.497681 0.485407 0.47425 0.463861
 1 0.834567 0.726988 0.654773 0.604208 0.567091 0.538736 0.515988 0.497267 0.481176 0.467239 0.454707 0.443504 0.433148 0.423705 0.414829

