**************************************************************
***  MERIS LUT-168: Aerosol transmittance                  ***
***                 for each of AOTs at 560nm [AOT560],    ***
***                 for each of 78 aerosol models [IAER],  ***
***                 & for each of 12 solar angles [SZA]    ***
**************************************************************

Aerosol optical thickness (560nm): AOT560
---------------------------------        

 0.0 0.1 0.2 0.3 0.4 0.5 0.6 0.7 0.8 0.9 1.0 1.1 1.2 1.3 1.4 1.5

12 Gaussian angles (deg): SZA
------------------------     

 2.84 17.64 28.77 36.19 43.61 51.03 58.46 65.88 69.59 73.30 77.01 80.72

Aerosol transmittance: [SZA x AOT560]
---------------------                

Aerosol model #3
 1 0.994165 0.988102 0.981864 0.975436 0.968821 0.962242 0.955406 0.948669 0.941689 0.93487 0.927861 0.920774 0.913651 0.906478 0.899253
 1 0.993598 0.986916 0.980039 0.972949 0.965656 0.95842 0.950907 0.943592 0.936051 0.928137 0.920693 0.912926 0.905411 0.897807 0.890115
 1 0.992397 0.984444 0.976172 0.967819 0.959166 0.95029 0.941785 0.932797 0.924249 0.915266 0.906697 0.897791 0.88885 0.880637 0.871999
 1 0.990952 0.981484 0.971775 0.961857 0.95159 0.941705 0.931562 0.921419 0.911306 0.901246 0.891253 0.881349 0.87154 0.861841 0.852261
 1 0.988595 0.976737 0.964601 0.952333 0.940021 0.927736 0.915527 0.903436 0.891492 0.87972 0.868138 0.856758 0.845591 0.834643 0.82392
 1 0.984651 0.968829 0.952878 0.936989 0.921286 0.905851 0.890739 0.875991 0.861628 0.847666 0.83411 0.820962 0.808218 0.795871 0.783913
 1 0.977583 0.955041 0.9329 0.911407 0.890689 0.870811 0.851803 0.833654 0.816345 0.799858 0.784153 0.769187 0.754927 0.741332 0.728359
 1 0.963953 0.929454 0.897118 0.867082 0.839307 0.813677 0.790034 0.768213 0.748046 0.729373 0.712057 0.69596 0.680948 0.66692 0.653773
 1 0.952256 0.908343 0.868662 0.833024 0.801074 0.772409 0.746638 0.723399 0.702363 0.68325 0.665801 0.649811 0.63508 0.621467 0.608815
 1 0.934432 0.877463 0.828586 0.786692 0.750681 0.719558 0.692477 0.668733 0.647783 0.629105 0.612375 0.597244 0.58345 0.570823 0.559156
 1 0.90568 0.830589 0.771007 0.723322 0.684647 0.652886 0.62636 0.603828 0.584458 0.567528 0.552515 0.539091 0.526906 0.515802 0.505567
 1 0.855297 0.756302 0.687342 0.637754 0.600743 0.57217 0.549278 0.530345 0.514222 0.500239 0.48785 0.476685 0.466553 0.457217 0.4486

