**************************************************************
***  MERIS LUT-168: Aerosol transmittance                  ***
***                 for each of AOTs at 560nm [AOT560],    ***
***                 for each of 78 aerosol models [IAER],  ***
***                 & for each of 12 solar angles [SZA]    ***
**************************************************************

Aerosol optical thickness (560nm): AOT560
---------------------------------        

 0.0 0.1 0.2 0.3 0.4 0.5 0.6 0.7 0.8 0.9 1.0 1.1 1.2 1.3 1.4 1.5

12 Gaussian angles (deg): SZA
------------------------     

 2.84 17.64 28.77 36.19 43.61 51.03 58.46 65.88 69.59 73.30 77.01 80.72

Aerosol transmittance: [SZA x AOT560]
---------------------                

Aerosol model #76
 1 0.979018 0.957939 0.937057 0.916464 0.896204 0.876077 0.856953 0.837985 0.819928 0.802117 0.784819 0.768039 0.751767 0.734907 0.720724
 1 0.977356 0.954781 0.932361 0.910191 0.889064 0.868022 0.847434 0.82818 0.808918 0.790176 0.771933 0.754172 0.738368 0.721941 0.705993
 1 0.974157 0.948644 0.923554 0.898978 0.875747 0.852818 0.83057 0.810172 0.789857 0.769562 0.750404 0.731877 0.71618 0.699515 0.683496
 1 0.970607 0.94191 0.913991 0.886925 0.86173 0.837145 0.813626 0.79116 0.769693 0.74919 0.729631 0.710933 0.69309 0.676021 0.659699
 1 0.965361 0.932044 0.900285 0.870139 0.841592 0.814591 0.789069 0.764945 0.742138 0.720565 0.700149 0.680812 0.662482 0.645091 0.628573
 1 0.957356 0.917333 0.88002 0.845318 0.813072 0.783101 0.755225 0.729268 0.705066 0.682463 0.661324 0.641515 0.622923 0.605446 0.588983
 1 0.944768 0.894804 0.849733 0.809048 0.772276 0.738928 0.708599 0.680979 0.65567 0.632471 0.611068 0.591319 0.572981 0.555952 0.540044
 1 0.923743 0.858665 0.802902 0.754887 0.713204 0.676846 0.644821 0.61643 0.591185 0.568438 0.547939 0.529235 0.512172 0.496435 0.481923
 1 0.907522 0.83196 0.769649 0.717699 0.674071 0.636831 0.604892 0.577017 0.55261 0.530873 0.511477 0.493901 0.47796 0.463339 0.449835
 1 0.88464 0.795895 0.726582 0.671355 0.626754 0.589981 0.559094 0.532822 0.510026 0.490061 0.472264 0.456301 0.441773 0.4285 0.416233
 1 0.850565 0.745712 0.670023 0.613544 0.570263 0.535959 0.507918 0.484499 0.464364 0.446815 0.431164 0.417105 0.404258 0.39248 0.381568
 1 0.795664 0.673282 0.595676 0.543251 0.505451 0.476658 0.453443 0.434086 0.417351 0.402523 0.389226 0.377095 0.365975 0.355663 0.346086

